Folder: ULAB/041119

Note: 041119/aba1_1.txt
482.357	1	525
482.490	1	517
482.624	1	536
482.758	1	538
482.892	1	549
483.025	1	544
483.159	1	536
483.293	1	531
483.426	1	530
483.560	1	518
483.694	1	508
483.827	1	518
483.961	1	534
484.095	1	512
484.228	1	482
484.362	1	470
484.496	1	472
484.629	1	483
484.763	1	501
484.897	1	480
485.030	1	488
485.164	1	498
485.297	1	492
485.431	1	478
485.565	1	495
485.698	1	512
485.832	1	504
485.965	1	485
486.099	1	467
486.233	1	494
486.366	1	513
486.500	1	506
486.633	1	490
486.767	1	503
486.900	1	486
487.034	1	650
487.167	1	1103
487.301	1	516
487.434	1	468
487.568	1	469
487.701	1	485
487.835	1	457
487.968	1	479
488.102	1	475
488.235	1	490
488.369	1	491
488.502	1	497
488.636	1	487
488.769	1	477
488.903	1	448
489.036	1	474
489.170	1	493
489.303	1	490
489.436	1	504
489.570	1	499
489.703	1	528
489.837	1	517
489.970	1	526
490.103	1	576
490.237	1	533
490.370	1	542
490.504	1	533
490.637	1	518
490.770	1	537
490.904	1	537
491.037	1	518
491.170	1	552
491.304	1	570
491.437	1	582
491.570	1	557
491.704	1	547
491.837	1	548
491.970	1	514
492.104	1	519
492.237	1	513
492.370	1	522
492.504	1	499
492.637	1	504
492.770	1	488
492.904	1	541
493.037	1	586
493.170	1	565
493.303	1	571
493.437	1	583
493.570	1	550
493.703	1	537
493.836	1	539
493.970	1	535
494.103	1	555
494.236	1	584
494.369	1	525
494.502	1	489
494.636	1	500
494.769	1	526
494.902	1	161
495.035	1	460
495.168	1	515
495.301	1	531
495.435	1	812
495.568	1	553
495.701	1	508
495.834	1	528
495.967	1	527
496.100	1	536
496.234	1	509
496.367	1	486
496.500	1	494
496.633	1	539
496.766	1	514
496.899	1	564
497.032	1	498
497.165	1	524
497.298	1	547
497.431	1	517
497.565	1	514
497.698	1	540
497.831	1	518
497.964	1	506
498.097	1	521
498.230	1	508
498.363	1	521
498.496	1	539
498.629	1	542
498.762	1	565
498.895	1	572
499.028	1	550
499.161	1	563
499.294	1	593
499.427	1	608
499.560	1	615
499.693	1	630
499.826	1	627
499.959	1	624
500.092	1	598
500.225	1	576
500.358	1	574
500.491	1	612
500.624	1	572
500.757	1	569
500.889	1	592
501.022	1	615
501.155	1	607
501.288	1	607
501.421	1	597
501.554	1	604
501.687	1	606
501.820	1	605
501.953	1	605
502.086	1	593
502.218	1	569
502.351	1	588
502.484	1	613
502.617	1	577
502.750	1	569
502.883	1	558
503.016	1	561
503.148	1	597
503.281	1	637
503.414	1	624
503.547	1	637
503.680	1	617
503.812	1	624
503.945	1	644
504.078	1	663
504.211	1	608
504.344	1	596
504.476	1	604
504.609	1	622
504.742	1	618
504.875	1	636
505.007	1	680
505.140	1	657
505.273	1	583
505.406	1	36
505.538	1	537
505.671	1	683
505.804	1	721
505.936	1	729
506.069	1	752
506.202	1	727
506.335	1	712
506.467	1	670
506.600	1	662
506.733	1	690
506.865	1	704
506.998	1	730
507.131	1	757
507.263	1	1106
507.396	1	804
507.528	1	745
507.661	1	675
507.794	1	658
507.926	1	670
508.059	1	680
508.192	1	691
508.324	1	726
508.457	1	703
508.589	1	718
508.722	1	727
508.854	1	691
508.987	1	696
509.120	1	719
509.252	1	715
509.385	1	729
509.517	1	733
509.650	1	772
509.782	1	733
509.915	1	794
510.047	1	776
510.180	1	794
510.312	1	808
510.445	1	791
510.577	1	815
510.710	1	830
510

Note: 041119/abc_maybe_1_1.txt
482.357	1	188
482.490	1	209
482.624	1	223
482.758	1	213
482.892	1	227
483.025	1	238
483.159	1	233
483.293	1	241
483.426	1	219
483.560	1	200
483.694	1	185
483.827	1	200
483.961	1	236
484.095	1	187
484.228	1	177
484.362	1	173
484.496	1	173
484.629	1	179
484.763	1	210
484.897	1	203
485.030	1	195
485.164	1	192
485.297	1	192
485.431	1	201
485.565	1	200
485.698	1	213
485.832	1	231
485.965	1	184
486.099	1	181
486.233	1	214
486.366	1	198
486.500	1	195
486.633	1	200
486.767	1	195
486.900	1	173
487.034	1	176
487.167	1	203
487.301	1	200
487.434	1	175
487.568	1	187
487.701	1	176
487.835	1	161
487.968	1	189
488.102	1	183
488.235	1	185
488.369	1	179
488.502	1	173
488.636	1	186
488.769	1	170
488.903	1	175
489.036	1	186
489.170	1	194
489.303	1	188
489.436	1	181
489.570	1	191
489.703	1	221
489.837	1	213
489.970	1	216
490.103	1	269
490.237	1	227
490.370	1	219
490.504	1	223
490.637	1	196
490.770	1	216
490.904	1	223
491.037	1	196
491.170	1	207
491.304	1	248
491.437	1	232
491.570	1	216
491.704	1	216
491.837	1	232
491.970	1	212
492.104	1	205
492.237	1	192
492.370	1	220
492.504	1	189
492.637	1	189
492.770	1	192
492.904	1	216
493.037	1	248
493.170	1	247
493.303	1	226
493.437	1	232
493.570	1	233
493.703	1	197
493.836	1	223
493.970	1	335
494.103	1	304
494.236	1	233
494.369	1	206
494.502	1	175
494.636	1	192
494.769	1	213
494.902	1	-174
495.035	1	138
495.168	1	201
495.301	1	201
495.435	1	207
495.568	1	205
495.701	1	206
495.834	1	199
495.967	1	206
496.100	1	239
496.234	1	225
496.367	1	186
496.500	1	192
496.633	1	209
496.766	1	235
496.899	1	206
497.032	1	195
497.165	1	208
497.298	1	219
497.431	1	199
497.565	1	214
497.698	1	218
497.831	1	216
497.964	1	185
498.097	1	186
498.230	1	197
498.363	1	201
498.496	1	221
498.629	1	213
498.762	1	242
498.895	1	239
499.028	1	204
499.161	1	208
499.294	1	259
499.427	1	251
499.560	1	292
499.693	1	280
499.826	1	256
499.959	1	260
500.092	1	243
500.225	1	216
500.358	1	241
500.491	1	239
500.624	1	234
500.757	1	231
500.889	1	247
501.022	1	251
501.155	1	272
501.288	1	244
501.421	1	257
501.554	1	580
501.687	1	834
501.820	1	619
501.953	1	313
502.086	1	245
502.218	1	250
502.351	1	237
502.484	1	239
502.617	1	226
502.750	1	243
502.883	1	215
503.016	1	211
503.148	1	270
503.281	1	274
503.414	1	290
503.547	1	261
503.680	1	272
503.812	1	262
503.945	1	280
504.078	1	268
504.211	1	255
504.344	1	268
504.476	1	250
504.609	1	259
504.742	1	261
504.875	1	267
505.007	1	295
505.140	1	305
505.273	1	230
505.406	1	-358
505.538	1	181
505.671	1	329
505.804	1	354
505.936	1	357
506.069	1	384
506.202	1	363
506.335	1	335
506.467	1	324
506.600	1	314
506.733	1	331
506.865	1	354
506.998	1	336
507.131	1	343
507.263	1	348
507.396	1	370
507.528	1	366
507.661	1	314
507.794	1	294
507.926	1	317
508.059	1	311
508.192	1	315
508.324	1	359
508.457	1	310
508.589	1	322
508.722	1	336
508.854	1	317
508.987	1	332
509.120	1	341
509.252	1	321
509.385	1	321
509.517	1	348
509.650	1	388
509.782	1	376
509.915	1	353
510.047	1	358
510.180	1	370
510.312	1	371
510.445	1	373
510.577	1	408
510.710	1	420
51

File: silicon raman_1.txt
482.357	1	4
482.892	1	2
483.426	1	13
483.961	1	6
484.496	1	4
485.030	1	16
485.565	1	14
486.099	1	19
486.633	1	14
487.167	1	9
487.701	1	8
488.235	1	15
488.769	1	16
489.303	1	13
489.837	1	14
490.370	1	16
490.904	1	10
491.437	1	18
491.970	1	12
492.504	1	3
493.037	1	3
493.570	1	6
494.103	1	14
494.636	1	16
495.168	1	13
495.701	1	19
496.234	1	-1
496.766	1	9
497.298	1	10
497.831	1	15
498.363	1	9
498.895	1	9
499.427	1	27
499.959	1	7
500.491	1	12
501.022	1	27
501.554	1	15
502.086	1	23
502.617	1	12
503.148	1	20
503.680	1	13
504.211	1	13
504.742	1	21
505.273	1	15
505.804	1	30
506.335	1	18
506.865	1	18
507.396	1	31
507.926	1	20
508.457	1	28
508.987	1	21
509.517	1	20
510.047	1	19
510.577	1	18
511.107	1	28
511.637	1	36
512.167	1	29
512.697	1	31
513.226	1	30
513.756	1	53
514.285	1	42
514.814	1	43
515.344	1	45
515.873	1	69
516.402	1	95
516.931	1	172
517.460	1	245
517.988	1	244
518.517	1	81
519.046	1	45
519.574	1	54
520.102	1	67
520.631	1	83
521.159	1	113
521.687	1	125
522.215	1	127
522.743	1	156
523.271	1	182
523.798	1	198
524.326	1	182
524.853	1	198
525.381	1	231
525.908	1	322
526.436	1	376
526.963	1	684
527.490	1	902
528.017	1	1532
528.544	1	1644
529.070	1	4293
529.597	1	4129
530.124	1	4219
530.650	1	2898
531.177	1	5308
531.703	1	64860
532.229	1	64857
532.755	1	2630
533.281	1	1406
533.807	1	1076
534.333	1	861
534.859	1	725
535.385	1	537
535.910	1	525
536.436	1	709
536.961	1	1128
537.486	1	1519
538.011	1	408
538.537	1	375
539.062	1	255
539.587	1	133
540.111	1	256
540.636	1	394
541.161	1	481
541.685	1	451
542.210	1	403
542.734	1	357
543.258	1	327
543.783	1	310
544.307	1	268
544.831	1	246
545.355	1	211
545.878	1	298
546.402	1	1008
546.926	1	2155
547.449	1	2807
547.973	1	1165
548.496	1	686
549.019	1	523
549.542	1	488
550.065	1	485
550.588	1	487
551.111	1	401
551.634	1	374
552.157	1	355
552.679	1	323
553.202	1	311
553.724	1	286
554.246	1	285
554.769	1	270
555.291	1	291
555.813	1	294
556.335	1	268
556.857	1	263
557.378	1	260
557.900	1	255
558.422	1	258
558.943	1	282
559.464	1	356
559.986	1	505
560.507	1	584
561.028	1	552
561.549	1	462
562.070	1	309
562.591	1	217
563.112	1	173
563.632	1	157
564.153	1	177
564.673	1	162
565.194	1	156
565.714	1	156
566.234	1	143
566.754	1	142
567.274	1	142
567.794	1	136
568.314	1	143
568.833	1	-64
569.353	1	4
569.873	1	129
570.392	1	131
570.911	1	132
571.431	1	130
571.950	1	111
572.469	1	124
572.988	1	104
573.507	1	106
574.025	1	109
574.544	1	101
575.063	1	108
575.581	1	104
576.099	1	101
576.618	1	102
577.136	1	99
577.654	1	104
578.172	1	92
578.690	1	84
579.208	1	98
579.726	1	92
580.243	1	96
580.761	1	93
581.278	1	90
581.796	1	99
582.313	1	80
582.830	1	105
583.347	1	81
583.864	1	80
584.381	1	75
584.898	1	75
585.415	1	85
585.931	1	74
586.448	1	86
586.964	1	78
587.481	1	65
587.997	1	67
588.513	1	62
589.029	1	79
589.545	1	73
590.061	1	68
590.577	1	67
591.093	1	76
591.608	1	61
592.124	1	73
592.639	1	72
593.154	1	60
593.670	1	71
594.185	1	67
594.700	1	65
595.215	1	57
595.730	1	73
596.244	1	44
596.759	1	55
597.274	1	64
597.788	1	50
598.303	1	64
598.817	1	60
599.331	1	47
599.845	1	59
600.359	1	53
600.873	1	63
601.387	1	62
601.901	1	62
602.414	1	51
602.928	1	47
603.441	1	64
603.955	1	51
604.468	1	53
604.981	1	48
605.494	1	59
606.007	1	54
606.520	1	44
607.033	1	58
607.546	1	48
608.058	1	177
608.571	1	50
609.083	1	44
609.596	1	47
610.108	1	45
610.620	1	39
611.132	1	43
611.644	1	50
612.156	1	33
612.668	1	25
613.179	1	22
613.691	1	25
614.203	1	20
614.714	1	19
615.225	1	8
615.736	1	25
616.120	1	15